"File_180516_140653_black_pvcliner_Gd_soak2 - RawData"
"Wavelength nm.","Abs."
190.00, 
191.00, 
192.00, 
193.00, 
194.00, 
195.00, 
196.00, 
197.00, 
198.00, 
199.00, 
200.00,2.758
201.00,2.522
202.00,2.322
203.00,2.135
204.00,2.002
205.00,1.925
206.00,1.895
207.00,1.882
208.00,1.881
209.00,1.881
210.00,1.881
211.00,1.869
212.00,1.841
213.00,1.802
214.00,1.764
215.00,1.726
216.00,1.687
217.00,1.640
218.00,1.574
219.00,1.483
220.00,1.374
221.00,1.245
222.00,1.100
223.00,0.959
224.00,0.827
225.00,0.703
226.00,0.595
227.00,0.500
228.00,0.431
229.00,0.376
230.00,0.333
231.00,0.303
232.00,0.279
233.00,0.263
234.00,0.249
235.00,0.237
236.00,0.226
237.00,0.216
238.00,0.206
239.00,0.196
240.00,0.187
241.00,0.180
242.00,0.174
243.00,0.171
244.00,0.174
245.00,0.173
246.00,0.179
247.00,0.167
248.00,0.166
249.00,0.169
250.00,0.173
251.00,0.180
252.00,0.197
253.00,0.197
254.00,0.199
255.00,0.210
256.00,0.222
257.00,0.235
258.00,0.249
259.00,0.266
260.00,0.287
261.00,0.310
262.00,0.332
263.00,0.349
264.00,0.362
265.00,0.374
266.00,0.388
267.00,0.410
268.00,0.432
269.00,0.447
270.00,0.449
271.00,0.441
272.00,0.546
273.00,0.764
274.00,0.556
275.00,0.527
276.00,0.547
277.00,0.359
278.00,0.322
279.00,0.265
280.00,0.188
281.00,0.144
282.00,0.111
283.00,0.087
284.00,0.071
285.00,0.060
286.00,0.052
287.00,0.047
288.00,0.043
289.00,0.041
290.00,0.040
291.00,0.039
292.00,0.038
293.00,0.038
294.00,0.038
295.00,0.038
296.00,0.037
297.00,0.037
298.00,0.036
299.00,0.036
300.00,0.035
301.00,0.034
302.00,0.032
303.00,0.031
304.00,0.030
305.00,0.039
306.00,0.033
307.00,0.024
308.00,0.023
309.00,0.022
310.00,0.027
311.00,0.046
312.00,0.023
313.00,0.018
314.00,0.017
315.00,0.016
316.00,0.016
317.00,0.015
318.00,0.015
319.00,0.015
320.00,0.015
321.00,0.014
322.00,0.014
323.00,0.013
324.00,0.013
325.00,0.013
326.00,0.012
327.00,0.012
328.00,0.012
329.00,0.012
330.00,0.011
331.00,0.011
332.00,0.011
333.00,0.011
334.00,0.011
335.00,0.010
336.00,0.010
337.00,0.010
338.00,0.009
339.00,0.009
340.00,0.010
341.00,0.009
342.00,0.009
343.00,0.009
344.00,0.009
345.00,0.009
346.00,0.008
347.00,0.008
348.00,0.009
349.00,0.008
350.00,0.008
351.00,0.008
352.00,0.008
353.00,0.008
354.00,0.008
355.00,0.007
356.00,0.007
357.00,0.007
358.00,0.007
359.00,0.007
360.00,0.007
361.00,0.007
362.00,0.007
363.00,0.006
364.00,0.006
365.00,0.006
366.00,0.006
367.00,0.006
368.00,0.006
369.00,0.006
370.00,0.006
371.00,0.006
372.00,0.005
373.00,0.006
374.00,0.006
375.00,0.005
376.00,0.005
377.00,0.005
378.00,0.005
379.00,0.005
380.00,0.005
381.00,0.005
382.00,0.005
383.00,0.005
384.00,0.005
385.00,0.005
386.00,0.005
387.00,0.005
388.00,0.004
389.00,0.004
390.00,0.004
391.00,0.004
392.00,0.004
393.00,0.004
394.00,0.004
395.00,0.004
396.00,0.004
397.00,0.004
398.00,0.004
399.00,0.004
400.00,0.004
401.00,0.004
402.00,0.004
403.00,0.004
404.00,0.004
405.00,0.004
406.00,0.004
407.00,0.004
408.00,0.004
409.00,0.004
410.00,0.004
411.00,0.004
412.00,0.004
413.00,0.004
414.00,0.004
415.00,0.004
416.00,0.004
417.00,0.004
418.00,0.004
419.00,0.004
420.00,0.004
421.00,0.004
422.00,0.004
423.00,0.004
424.00,0.004
425.00,0.004
426.00,0.004
427.00,0.004
428.00,0.004
429.00,0.004
430.00,0.004
431.00,0.004
432.00,0.004
433.00,0.004
434.00,0.004
435.00,0.004
436.00,0.004
437.00,0.004
438.00,0.004
439.00,0.004
440.00,0.004
441.00,0.004
442.00,0.003
443.00,0.003
444.00,0.003
445.00,0.003
446.00,0.003
447.00,0.004
448.00,0.003
449.00,0.003
450.00,0.003
451.00,0.003
452.00,0.003
453.00,0.003
454.00,0.003
455.00,0.003
456.00,0.003
457.00,0.003
458.00,0.003
459.00,0.003
460.00,0.003
461.00,0.003
462.00,0.003
463.00,0.003
464.00,0.003
465.00,0.003
466.00,0.003
467.00,0.003
468.00,0.003
469.00,0.003
470.00,0.003
471.00,0.003
472.00,0.003
473.00,0.003
474.00,0.003
475.00,0.003
476.00,0.003
477.00,0.003
478.00,0.003
479.00,0.003
480.00,0.003
481.00,0.003
482.00,0.003
483.00,0.003
484.00,0.003
485.00,0.003
486.00,0.003
487.00,0.003
488.00,0.003
489.00,0.003
490.00,0.003
491.00,0.003
492.00,0.003
493.00,0.003
494.00,0.003
495.00,0.003
496.00,0.003
497.00,0.003
498.00,0.003
499.00,0.003
500.00,0.003
501.00,0.003
502.00,0.003
503.00,0.003
504.00,0.003
505.00,0.003
506.00,0.003
507.00,0.003
508.00,0.003
509.00,0.003
510.00,0.003
511.00,0.003
512.00,0.003
513.00,0.003
514.00,0.003
515.00,0.003
516.00,0.003
517.00,0.003
518.00,0.003
519.00,0.003
520.00,0.003
521.00,0.003
522.00,0.003
523.00,0.003
524.00,0.003
525.00,0.003
526.00,0.003
527.00,0.003
528.00,0.002
529.00,0.003
530.00,0.003
531.00,0.003
532.00,0.003
533.00,0.003
534.00,0.002
535.00,0.002
536.00,0.002
537.00,0.002
538.00,0.002
539.00,0.002
540.00,0.002
541.00,0.002
542.00,0.002
543.00,0.002
544.00,0.002
545.00,0.002
546.00,0.002
547.00,0.002
548.00,0.002
549.00,0.002
550.00,0.002
551.00,0.002
552.00,0.002
553.00,0.002
554.00,0.002
555.00,0.002
556.00,0.002
557.00,0.002
558.00,0.002
559.00,0.002
560.00,0.002
561.00,0.002
562.00,0.002
563.00,0.002
564.00,0.002
565.00,0.002
566.00,0.002
567.00,0.002
568.00,0.002
569.00,0.002
570.00,0.002
571.00,0.002
572.00,0.002
573.00,0.002
574.00,0.002
575.00,0.002
576.00,0.002
577.00,0.002
578.00,0.002
579.00,0.002
580.00,0.002
581.00,0.002
582.00,0.002
583.00,0.002
584.00,0.002
585.00,0.002
586.00,0.002
587.00,0.002
588.00,0.002
589.00,0.002
590.00,0.002
591.00,0.002
592.00,0.002
593.00,0.002
594.00,0.002
595.00,0.002
596.00,0.002
597.00,0.002
598.00,0.002
599.00,0.002
600.00,0.002
601.00,0.002
602.00,0.002
603.00,0.002
604.00,0.002
605.00,0.002
606.00,0.002
607.00,0.002
608.00,0.002
609.00,0.002
610.00,0.002
611.00,0.002
612.00,0.002
613.00,0.002
614.00,0.002
615.00,0.002
616.00,0.002
617.00,0.002
618.00,0.002
619.00,0.002
620.00,0.002
621.00,0.002
622.00,0.002
623.00,0.002
624.00,0.002
625.00,0.002
626.00,0.002
627.00,0.002
628.00,0.002
629.00,0.002
630.00,0.002
631.00,0.002
632.00,0.002
633.00,0.002
634.00,0.002
635.00,0.002
636.00,0.002
637.00,0.002
638.00,0.002
639.00,0.002
640.00,0.002
641.00,0.002
642.00,0.002
643.00,0.002
644.00,0.002
645.00,0.002
646.00,0.002
647.00,0.002
648.00,0.002
649.00,0.002
650.00,0.002
651.00,0.002
652.00,0.002
653.00,0.002
654.00,0.002
655.00,0.002
656.00,0.002
657.00,0.002
658.00,0.002
659.00,0.002
660.00,0.002
661.00,0.002
662.00,0.002
663.00,0.002
664.00,0.002
665.00,0.002
666.00,0.002
667.00,0.002
668.00,0.002
669.00,0.002
670.00,0.002
671.00,0.002
672.00,0.002
673.00,0.002
674.00,0.002
675.00,0.002
676.00,0.002
677.00,0.001
678.00,0.002
679.00,0.002
680.00,0.002
681.00,0.002
682.00,0.002
683.00,0.001
684.00,0.001
685.00,0.001
686.00,0.002
687.00,0.001
688.00,0.001
689.00,0.002
690.00,0.001
691.00,0.002
692.00,0.002
693.00,0.001
694.00,0.001
695.00,0.001
696.00,0.001
697.00,0.001
698.00,0.001
699.00,0.001
700.00,0.001
701.00,0.001
702.00,0.001
703.00,0.001
704.00,0.001
705.00,0.001
706.00,0.001
707.00,0.001
708.00,0.001
709.00,0.001
710.00,0.001
711.00,0.001
712.00,0.001
713.00,0.001
714.00,0.001
715.00,0.001
716.00,0.001
717.00,0.001
718.00,0.001
719.00,0.001
720.00,0.001
721.00,0.001
722.00,0.001
723.00,0.001
724.00,0.001
725.00,0.001
726.00,0.001
727.00,0.001
728.00,0.001
729.00,0.001
730.00,0.001
731.00,0.001
732.00,0.001
733.00,0.001
734.00,0.001
735.00,0.001
736.00,0.001
737.00,0.001
738.00,0.001
739.00,0.001
740.00,0.001
741.00,0.001
742.00,0.001
743.00,0.001
744.00,0.001
745.00,0.001
746.00,0.001
747.00,0.001
748.00,0.001
749.00,0.001
750.00,0.001
751.00, 
752.00, 
753.00, 
754.00, 
755.00, 
756.00, 
757.00, 
758.00, 
759.00, 
760.00, 
761.00, 
762.00, 
763.00, 
764.00, 
765.00, 
766.00, 
767.00, 
768.00, 
769.00, 
770.00, 
771.00, 
772.00, 
773.00, 
774.00, 
775.00, 
776.00, 
777.00, 
778.00, 
779.00, 
780.00, 
781.00, 
782.00, 
783.00, 
784.00, 
785.00, 
786.00, 
787.00, 
788.00, 
789.00, 
790.00, 
791.00, 
792.00, 
793.00, 
794.00, 
795.00, 
796.00, 
797.00, 
798.00, 
799.00, 
800.00, 
801.00, 
802.00, 
803.00, 
804.00, 
805.00, 
806.00, 
807.00, 
808.00, 
809.00, 
810.00, 
811.00, 
812.00, 
813.00, 
814.00, 
815.00, 
816.00, 
817.00, 
818.00, 
819.00, 
820.00, 
821.00, 
822.00, 
823.00, 
824.00, 
825.00, 
826.00, 
827.00, 
828.00, 
829.00, 
830.00, 
831.00, 
832.00, 
833.00, 
834.00, 
835.00, 
836.00, 
837.00, 
838.00, 
839.00, 
840.00, 
841.00, 
842.00, 
843.00, 
844.00, 
845.00, 
846.00, 
847.00, 
848.00, 
849.00, 
850.00, 
851.00, 
852.00, 
853.00, 
854.00, 
855.00, 
856.00, 
857.00, 
858.00, 
859.00, 
860.00, 
861.00, 
862.00, 
863.00, 
864.00, 
865.00, 
866.00, 
867.00, 
868.00, 
869.00, 
870.00, 
871.00, 
872.00, 
873.00, 
874.00, 
875.00, 
876.00, 
877.00, 
878.00, 
879.00, 
880.00, 
881.00, 
882.00, 
883.00, 
884.00, 
885.00, 
886.00, 
887.00, 
888.00, 
889.00, 
890.00, 
891.00, 
892.00, 
893.00, 
894.00, 
895.00, 
896.00, 
897.00, 
898.00, 
899.00, 
900.00, 
901.00, 
902.00, 
903.00, 
904.00, 
905.00, 
906.00, 
907.00, 
908.00, 
909.00, 
910.00, 
911.00, 
912.00, 
913.00, 
914.00, 
915.00, 
916.00, 
917.00, 
918.00, 
919.00, 
920.00, 
921.00, 
922.00, 
923.00, 
924.00, 
925.00, 
926.00, 
927.00, 
928.00, 
929.00, 
930.00, 
931.00, 
932.00, 
933.00, 
934.00, 
935.00, 
936.00, 
937.00, 
938.00, 
939.00, 
940.00, 
941.00, 
942.00, 
943.00, 
944.00, 
945.00, 
946.00, 
947.00, 
948.00, 
949.00, 
950.00, 
951.00, 
952.00, 
953.00, 
954.00, 
955.00, 
956.00, 
957.00, 
958.00, 
959.00, 
960.00, 
961.00, 
962.00, 
963.00, 
964.00, 
965.00, 
966.00, 
967.00, 
968.00, 
969.00, 
970.00, 
971.00, 
972.00, 
973.00, 
974.00, 
975.00, 
976.00, 
977.00, 
978.00, 
979.00, 
980.00, 
981.00, 
982.00, 
983.00, 
984.00, 
985.00, 
986.00, 
987.00, 
988.00, 
989.00, 
990.00, 
991.00, 
992.00, 
993.00, 
994.00, 
995.00, 
996.00, 
997.00, 
998.00, 
999.00, 
1000.00, 
1001.00, 
1002.00, 
1003.00, 
1004.00, 
1005.00, 
1006.00, 
1007.00, 
1008.00, 
1009.00, 
1010.00, 
1011.00, 
1012.00, 
1013.00, 
1014.00, 
1015.00, 
1016.00, 
1017.00, 
1018.00, 
1019.00, 
1020.00, 
1021.00, 
1022.00, 
1023.00, 
1024.00, 
1025.00, 
1026.00, 
1027.00, 
1028.00, 
1029.00, 
1030.00, 
1031.00, 
1032.00, 
1033.00, 
1034.00, 
1035.00, 
1036.00, 
1037.00, 
1038.00, 
1039.00, 
1040.00, 
1041.00, 
1042.00, 
1043.00, 
1044.00, 
1045.00, 
1046.00, 
1047.00, 
1048.00, 
1049.00, 
1050.00, 
1051.00, 
1052.00, 
1053.00, 
1054.00, 
1055.00, 
1056.00, 
1057.00, 
1058.00, 
1059.00, 
1060.00, 
1061.00, 
1062.00, 
1063.00, 
1064.00, 
1065.00, 
1066.00, 
1067.00, 
1068.00, 
1069.00, 
1070.00, 
1071.00, 
1072.00, 
1073.00, 
1074.00, 
1075.00, 
1076.00, 
1077.00, 
1078.00, 
1079.00, 
1080.00, 
1081.00, 
1082.00, 
1083.00, 
1084.00, 
1085.00, 
1086.00, 
1087.00, 
1088.00, 
1089.00, 
1090.00, 
1091.00, 
1092.00, 
1093.00, 
1094.00, 
1095.00, 
1096.00, 
1097.00, 
1098.00, 
1099.00, 
1100.00, 
