"File_190731_145317_black_pvcliner_Gd_soak2 - RawData"
"Wavelength nm.","Abs."
190.00, 
191.00, 
192.00, 
193.00, 
194.00, 
195.00, 
196.00, 
197.00, 
198.00, 
199.00, 
200.00,3.940
201.00,4.000
202.00,3.953
203.00,3.969
204.00,3.962
205.00,3.900
206.00,3.895
207.00,3.964
208.00,3.956
209.00,3.967
210.00,3.989
211.00,3.906
212.00,3.943
213.00,3.956
214.00,3.991
215.00,3.944
216.00,3.968
217.00,3.964
218.00,3.959
219.00,3.801
220.00,3.876
221.00,3.763
222.00,3.815
223.00,3.868
224.00,3.766
225.00,3.583
226.00,3.385
227.00,3.215
228.00,3.022
229.00,2.844
230.00,2.691
231.00,2.549
232.00,2.418
233.00,2.292
234.00,2.168
235.00,2.055
236.00,1.939
237.00,1.814
238.00,1.690
239.00,1.559
240.00,1.424
241.00,1.296
242.00,1.181
243.00,1.077
244.00,0.991
245.00,0.912
246.00,0.857
247.00,0.799
248.00,0.765
249.00,0.747
250.00,0.739
251.00,0.743
252.00,0.766
253.00,0.781
254.00,0.804
255.00,0.840
256.00,0.883
257.00,0.927
258.00,0.976
259.00,1.033
260.00,1.104
261.00,1.182
262.00,1.260
263.00,1.321
264.00,1.371
265.00,1.414
266.00,1.465
267.00,1.539
268.00,1.612
269.00,1.660
270.00,1.662
271.00,1.616
272.00,1.672
273.00,1.806
274.00,1.579
275.00,1.576
276.00,1.527
277.00,1.302
278.00,1.157
279.00,0.966
280.00,0.747
281.00,0.584
282.00,0.458
283.00,0.364
284.00,0.300
285.00,0.257
286.00,0.226
287.00,0.204
288.00,0.188
289.00,0.177
290.00,0.170
291.00,0.165
292.00,0.163
293.00,0.161
294.00,0.159
295.00,0.158
296.00,0.157
297.00,0.155
298.00,0.153
299.00,0.152
300.00,0.151
301.00,0.148
302.00,0.147
303.00,0.145
304.00,0.145
305.00,0.154
306.00,0.149
307.00,0.142
308.00,0.143
309.00,0.146
310.00,0.155
311.00,0.173
312.00,0.154
313.00,0.150
314.00,0.150
315.00,0.150
316.00,0.149
317.00,0.147
318.00,0.144
319.00,0.142
320.00,0.140
321.00,0.138
322.00,0.137
323.00,0.136
324.00,0.135
325.00,0.134
326.00,0.132
327.00,0.130
328.00,0.127
329.00,0.122
330.00,0.117
331.00,0.111
332.00,0.103
333.00,0.096
334.00,0.088
335.00,0.080
336.00,0.074
337.00,0.068
338.00,0.062
339.00,0.058
340.00,0.055
341.00,0.050
342.00,0.047
343.00,0.044
344.00,0.042
345.00,0.040
346.00,0.037
347.00,0.036
348.00,0.034
349.00,0.033
350.00,0.032
351.00,0.030
352.00,0.029
353.00,0.028
354.00,0.027
355.00,0.027
356.00,0.026
357.00,0.025
358.00,0.024
359.00,0.023
360.00,0.022
361.00,0.022
362.00,0.022
363.00,0.021
364.00,0.021
365.00,0.020
366.00,0.019
367.00,0.019
368.00,0.018
369.00,0.018
370.00,0.018
371.00,0.017
372.00,0.016
373.00,0.016
374.00,0.015
375.00,0.015
376.00,0.015
377.00,0.014
378.00,0.014
379.00,0.013
380.00,0.013
381.00,0.013
382.00,0.012
383.00,0.012
384.00,0.012
385.00,0.012
386.00,0.011
387.00,0.011
388.00,0.011
389.00,0.010
390.00,0.010
391.00,0.010
392.00,0.010
393.00,0.009
394.00,0.009
395.00,0.009
396.00,0.009
397.00,0.009
398.00,0.009
399.00,0.008
400.00,0.008
401.00,0.008
402.00,0.008
403.00,0.008
404.00,0.008
405.00,0.008
406.00,0.008
407.00,0.007
408.00,0.007
409.00,0.007
410.00,0.007
411.00,0.007
412.00,0.007
413.00,0.007
414.00,0.007
415.00,0.007
416.00,0.007
417.00,0.006
418.00,0.006
419.00,0.006
420.00,0.006
421.00,0.006
422.00,0.006
423.00,0.006
424.00,0.006
425.00,0.006
426.00,0.006
427.00,0.006
428.00,0.006
429.00,0.006
430.00,0.006
431.00,0.006
432.00,0.006
433.00,0.006
434.00,0.006
435.00,0.006
436.00,0.005
437.00,0.005
438.00,0.005
439.00,0.005
440.00,0.005
441.00,0.005
442.00,0.005
443.00,0.005
444.00,0.005
445.00,0.005
446.00,0.005
447.00,0.005
448.00,0.005
449.00,0.005
450.00,0.005
451.00,0.005
452.00,0.005
453.00,0.005
454.00,0.005
455.00,0.005
456.00,0.005
457.00,0.005
458.00,0.005
459.00,0.005
460.00,0.005
461.00,0.005
462.00,0.005
463.00,0.005
464.00,0.005
465.00,0.005
466.00,0.005
467.00,0.005
468.00,0.004
469.00,0.005
470.00,0.005
471.00,0.004
472.00,0.004
473.00,0.004
474.00,0.004
475.00,0.004
476.00,0.004
477.00,0.004
478.00,0.004
479.00,0.004
480.00,0.004
481.00,0.004
482.00,0.004
483.00,0.004
484.00,0.004
485.00,0.004
486.00,0.004
487.00,0.004
488.00,0.004
489.00,0.004
490.00,0.004
491.00,0.004
492.00,0.004
493.00,0.004
494.00,0.004
495.00,0.004
496.00,0.004
497.00,0.004
498.00,0.004
499.00,0.004
500.00,0.004
501.00,0.004
502.00,0.004
503.00,0.004
504.00,0.004
505.00,0.004
506.00,0.004
507.00,0.004
508.00,0.003
509.00,0.004
510.00,0.004
511.00,0.004
512.00,0.003
513.00,0.004
514.00,0.003
515.00,0.003
516.00,0.003
517.00,0.003
518.00,0.003
519.00,0.003
520.00,0.003
521.00,0.003
522.00,0.003
523.00,0.003
524.00,0.003
525.00,0.003
526.00,0.003
527.00,0.003
528.00,0.003
529.00,0.003
530.00,0.003
531.00,0.003
532.00,0.003
533.00,0.003
534.00,0.003
535.00,0.003
536.00,0.003
537.00,0.003
538.00,0.003
539.00,0.003
540.00,0.003
541.00,0.003
542.00,0.003
543.00,0.003
544.00,0.003
545.00,0.003
546.00,0.003
547.00,0.003
548.00,0.003
549.00,0.003
550.00,0.003
551.00,0.003
552.00,0.003
553.00,0.003
554.00,0.003
555.00,0.003
556.00,0.003
557.00,0.003
558.00,0.003
559.00,0.003
560.00,0.003
561.00,0.003
562.00,0.003
563.00,0.003
564.00,0.003
565.00,0.003
566.00,0.003
567.00,0.003
568.00,0.003
569.00,0.003
570.00,0.003
571.00,0.003
572.00,0.003
573.00,0.003
574.00,0.003
575.00,0.003
576.00,0.003
577.00,0.003
578.00,0.003
579.00,0.003
580.00,0.003
581.00,0.002
582.00,0.002
583.00,0.002
584.00,0.002
585.00,0.002
586.00,0.002
587.00,0.002
588.00,0.002
589.00,0.002
590.00,0.002
591.00,0.002
592.00,0.002
593.00,0.002
594.00,0.002
595.00,0.002
596.00,0.002
597.00,0.002
598.00,0.002
599.00,0.002
600.00,0.002
601.00,0.002
602.00,0.002
603.00,0.002
604.00,0.002
605.00,0.002
606.00,0.002
607.00,0.002
608.00,0.002
609.00,0.002
610.00,0.002
611.00,0.002
612.00,0.002
613.00,0.002
614.00,0.002
615.00,0.002
616.00,0.002
617.00,0.002
618.00,0.002
619.00,0.002
620.00,0.002
621.00,0.002
622.00,0.002
623.00,0.002
624.00,0.002
625.00,0.002
626.00,0.002
627.00,0.002
628.00,0.002
629.00,0.002
630.00,0.002
631.00,0.002
632.00,0.002
633.00,0.002
634.00,0.002
635.00,0.002
636.00,0.002
637.00,0.002
638.00,0.002
639.00,0.002
640.00,0.002
641.00,0.002
642.00,0.002
643.00,0.002
644.00,0.002
645.00,0.002
646.00,0.002
647.00,0.002
648.00,0.002
649.00,0.002
650.00,0.002
651.00,0.002
652.00,0.002
653.00,0.002
654.00,0.002
655.00,0.002
656.00,0.002
657.00,0.002
658.00,0.002
659.00,0.002
660.00,0.002
661.00,0.002
662.00,0.002
663.00,0.002
664.00,0.002
665.00,0.002
666.00,0.001
667.00,0.001
668.00,0.002
669.00,0.002
670.00,0.002
671.00,0.002
672.00,0.002
673.00,0.002
674.00,0.001
675.00,0.001
676.00,0.001
677.00,0.001
678.00,0.001
679.00,0.002
680.00,0.001
681.00,0.001
682.00,0.001
683.00,0.001
684.00,0.001
685.00,0.001
686.00,0.001
687.00,0.001
688.00,0.001
689.00,0.001
690.00,0.001
691.00,0.001
692.00,0.001
693.00,0.001
694.00,0.001
695.00,0.001
696.00,0.001
697.00,0.001
698.00,0.001
699.00,0.001
700.00,0.001
701.00,0.001
702.00,0.001
703.00,0.001
704.00,0.001
705.00,0.001
706.00,0.001
707.00,0.001
708.00,0.001
709.00,0.001
710.00,0.001
711.00,0.001
712.00,0.001
713.00,0.001
714.00,0.001
715.00,0.001
716.00,0.001
717.00,0.001
718.00,0.001
719.00,0.001
720.00,0.001
721.00,0.001
722.00,0.001
723.00,0.001
724.00,0.001
725.00,0.001
726.00,0.001
727.00,0.001
728.00,0.001
729.00,0.001
730.00,0.001
731.00,0.001
732.00,0.001
733.00,0.001
734.00,0.001
735.00,0.001
736.00,0.001
737.00,0.001
738.00,0.001
739.00,0.001
740.00,0.001
741.00,0.001
742.00,0.001
743.00,0.001
744.00,0.001
745.00,0.001
746.00,0.001
747.00,0.001
748.00,0.001
749.00,0.001
750.00,0.001
751.00, 
752.00, 
753.00, 
754.00, 
755.00, 
756.00, 
757.00, 
758.00, 
759.00, 
760.00, 
761.00, 
762.00, 
763.00, 
764.00, 
765.00, 
766.00, 
767.00, 
768.00, 
769.00, 
770.00, 
771.00, 
772.00, 
773.00, 
774.00, 
775.00, 
776.00, 
777.00, 
778.00, 
779.00, 
780.00, 
781.00, 
782.00, 
783.00, 
784.00, 
785.00, 
786.00, 
787.00, 
788.00, 
789.00, 
790.00, 
791.00, 
792.00, 
793.00, 
794.00, 
795.00, 
796.00, 
797.00, 
798.00, 
799.00, 
800.00, 
801.00, 
802.00, 
803.00, 
804.00, 
805.00, 
806.00, 
807.00, 
808.00, 
809.00, 
810.00, 
811.00, 
812.00, 
813.00, 
814.00, 
815.00, 
816.00, 
817.00, 
818.00, 
819.00, 
820.00, 
821.00, 
822.00, 
823.00, 
824.00, 
825.00, 
826.00, 
827.00, 
828.00, 
829.00, 
830.00, 
831.00, 
832.00, 
833.00, 
834.00, 
835.00, 
836.00, 
837.00, 
838.00, 
839.00, 
840.00, 
841.00, 
842.00, 
843.00, 
844.00, 
845.00, 
846.00, 
847.00, 
848.00, 
849.00, 
850.00, 
851.00, 
852.00, 
853.00, 
854.00, 
855.00, 
856.00, 
857.00, 
858.00, 
859.00, 
860.00, 
861.00, 
862.00, 
863.00, 
864.00, 
865.00, 
866.00, 
867.00, 
868.00, 
869.00, 
870.00, 
871.00, 
872.00, 
873.00, 
874.00, 
875.00, 
876.00, 
877.00, 
878.00, 
879.00, 
880.00, 
881.00, 
882.00, 
883.00, 
884.00, 
885.00, 
886.00, 
887.00, 
888.00, 
889.00, 
890.00, 
891.00, 
892.00, 
893.00, 
894.00, 
895.00, 
896.00, 
897.00, 
898.00, 
899.00, 
900.00, 
901.00, 
902.00, 
903.00, 
904.00, 
905.00, 
906.00, 
907.00, 
908.00, 
909.00, 
910.00, 
911.00, 
912.00, 
913.00, 
914.00, 
915.00, 
916.00, 
917.00, 
918.00, 
919.00, 
920.00, 
921.00, 
922.00, 
923.00, 
924.00, 
925.00, 
926.00, 
927.00, 
928.00, 
929.00, 
930.00, 
931.00, 
932.00, 
933.00, 
934.00, 
935.00, 
936.00, 
937.00, 
938.00, 
939.00, 
940.00, 
941.00, 
942.00, 
943.00, 
944.00, 
945.00, 
946.00, 
947.00, 
948.00, 
949.00, 
950.00, 
951.00, 
952.00, 
953.00, 
954.00, 
955.00, 
956.00, 
957.00, 
958.00, 
959.00, 
960.00, 
961.00, 
962.00, 
963.00, 
964.00, 
965.00, 
966.00, 
967.00, 
968.00, 
969.00, 
970.00, 
971.00, 
972.00, 
973.00, 
974.00, 
975.00, 
976.00, 
977.00, 
978.00, 
979.00, 
980.00, 
981.00, 
982.00, 
983.00, 
984.00, 
985.00, 
986.00, 
987.00, 
988.00, 
989.00, 
990.00, 
991.00, 
992.00, 
993.00, 
994.00, 
995.00, 
996.00, 
997.00, 
998.00, 
999.00, 
1000.00, 
1001.00, 
1002.00, 
1003.00, 
1004.00, 
1005.00, 
1006.00, 
1007.00, 
1008.00, 
1009.00, 
1010.00, 
1011.00, 
1012.00, 
1013.00, 
1014.00, 
1015.00, 
1016.00, 
1017.00, 
1018.00, 
1019.00, 
1020.00, 
1021.00, 
1022.00, 
1023.00, 
1024.00, 
1025.00, 
1026.00, 
1027.00, 
1028.00, 
1029.00, 
1030.00, 
1031.00, 
1032.00, 
1033.00, 
1034.00, 
1035.00, 
1036.00, 
1037.00, 
1038.00, 
1039.00, 
1040.00, 
1041.00, 
1042.00, 
1043.00, 
1044.00, 
1045.00, 
1046.00, 
1047.00, 
1048.00, 
1049.00, 
1050.00, 
1051.00, 
1052.00, 
1053.00, 
1054.00, 
1055.00, 
1056.00, 
1057.00, 
1058.00, 
1059.00, 
1060.00, 
1061.00, 
1062.00, 
1063.00, 
1064.00, 
1065.00, 
1066.00, 
1067.00, 
1068.00, 
1069.00, 
1070.00, 
1071.00, 
1072.00, 
1073.00, 
1074.00, 
1075.00, 
1076.00, 
1077.00, 
1078.00, 
1079.00, 
1080.00, 
1081.00, 
1082.00, 
1083.00, 
1084.00, 
1085.00, 
1086.00, 
1087.00, 
1088.00, 
1089.00, 
1090.00, 
1091.00, 
1092.00, 
1093.00, 
1094.00, 
1095.00, 
1096.00, 
1097.00, 
1098.00, 
1099.00, 
1100.00, 
