"File_180601_103103_black_pvcliner_Gd_soak2 - RawData"
"Wavelength nm.","Abs."
190.00, 
191.00, 
192.00, 
193.00, 
194.00, 
195.00, 
196.00, 
197.00, 
198.00, 
199.00, 
200.00,3.488
201.00,3.736
202.00,3.816
203.00,3.578
204.00,3.555
205.00,3.640
206.00,3.649
207.00,3.558
208.00,3.567
209.00,3.595
210.00,3.545
211.00,3.515
212.00,3.541
213.00,3.483
214.00,3.392
215.00,3.463
216.00,3.389
217.00,3.408
218.00,3.250
219.00,3.071
220.00,2.934
221.00,2.743
222.00,2.505
223.00,2.242
224.00,1.963
225.00,1.696
226.00,1.457
227.00,1.257
228.00,1.115
229.00,1.002
230.00,0.910
231.00,0.840
232.00,0.779
233.00,0.731
234.00,0.688
235.00,0.650
236.00,0.614
237.00,0.577
238.00,0.542
239.00,0.504
240.00,0.466
241.00,0.432
242.00,0.403
243.00,0.380
244.00,0.367
245.00,0.352
246.00,0.350
247.00,0.333
248.00,0.332
249.00,0.337
250.00,0.345
251.00,0.359
252.00,0.385
253.00,0.398
254.00,0.417
255.00,0.444
256.00,0.476
257.00,0.508
258.00,0.544
259.00,0.583
260.00,0.632
261.00,0.686
262.00,0.738
263.00,0.779
264.00,0.812
265.00,0.840
266.00,0.875
267.00,0.924
268.00,0.974
269.00,1.006
270.00,1.008
271.00,0.980
272.00,1.049
273.00,1.240
274.00,1.016
275.00,1.012
276.00,0.989
277.00,0.784
278.00,0.693
279.00,0.569
280.00,0.420
281.00,0.317
282.00,0.238
283.00,0.182
284.00,0.144
285.00,0.119
286.00,0.101
287.00,0.088
288.00,0.079
289.00,0.073
290.00,0.069
291.00,0.066
292.00,0.064
293.00,0.063
294.00,0.062
295.00,0.062
296.00,0.061
297.00,0.061
298.00,0.060
299.00,0.059
300.00,0.058
301.00,0.057
302.00,0.055
303.00,0.053
304.00,0.052
305.00,0.061
306.00,0.054
307.00,0.045
308.00,0.044
309.00,0.043
310.00,0.049
311.00,0.066
312.00,0.043
313.00,0.038
314.00,0.037
315.00,0.036
316.00,0.035
317.00,0.034
318.00,0.033
319.00,0.032
320.00,0.031
321.00,0.030
322.00,0.030
323.00,0.029
324.00,0.028
325.00,0.028
326.00,0.027
327.00,0.026
328.00,0.025
329.00,0.024
330.00,0.024
331.00,0.022
332.00,0.021
333.00,0.020
334.00,0.019
335.00,0.018
336.00,0.017
337.00,0.016
338.00,0.015
339.00,0.015
340.00,0.015
341.00,0.014
342.00,0.013
343.00,0.013
344.00,0.013
345.00,0.012
346.00,0.011
347.00,0.011
348.00,0.011
349.00,0.010
350.00,0.010
351.00,0.010
352.00,0.010
353.00,0.010
354.00,0.010
355.00,0.009
356.00,0.009
357.00,0.009
358.00,0.009
359.00,0.009
360.00,0.009
361.00,0.008
362.00,0.008
363.00,0.008
364.00,0.008
365.00,0.008
366.00,0.008
367.00,0.007
368.00,0.007
369.00,0.007
370.00,0.007
371.00,0.007
372.00,0.007
373.00,0.007
374.00,0.007
375.00,0.006
376.00,0.006
377.00,0.006
378.00,0.006
379.00,0.006
380.00,0.006
381.00,0.006
382.00,0.006
383.00,0.006
384.00,0.006
385.00,0.006
386.00,0.005
387.00,0.005
388.00,0.005
389.00,0.005
390.00,0.005
391.00,0.005
392.00,0.005
393.00,0.005
394.00,0.005
395.00,0.005
396.00,0.005
397.00,0.005
398.00,0.005
399.00,0.005
400.00,0.005
401.00,0.005
402.00,0.005
403.00,0.005
404.00,0.005
405.00,0.005
406.00,0.005
407.00,0.005
408.00,0.005
409.00,0.005
410.00,0.005
411.00,0.004
412.00,0.004
413.00,0.005
414.00,0.005
415.00,0.005
416.00,0.005
417.00,0.005
418.00,0.004
419.00,0.005
420.00,0.005
421.00,0.004
422.00,0.004
423.00,0.004
424.00,0.004
425.00,0.004
426.00,0.004
427.00,0.004
428.00,0.004
429.00,0.004
430.00,0.004
431.00,0.004
432.00,0.004
433.00,0.004
434.00,0.004
435.00,0.004
436.00,0.004
437.00,0.004
438.00,0.004
439.00,0.004
440.00,0.004
441.00,0.004
442.00,0.004
443.00,0.004
444.00,0.004
445.00,0.004
446.00,0.004
447.00,0.004
448.00,0.004
449.00,0.004
450.00,0.004
451.00,0.004
452.00,0.004
453.00,0.004
454.00,0.004
455.00,0.004
456.00,0.004
457.00,0.004
458.00,0.004
459.00,0.004
460.00,0.004
461.00,0.004
462.00,0.004
463.00,0.004
464.00,0.004
465.00,0.004
466.00,0.004
467.00,0.004
468.00,0.004
469.00,0.004
470.00,0.004
471.00,0.004
472.00,0.004
473.00,0.004
474.00,0.004
475.00,0.004
476.00,0.004
477.00,0.004
478.00,0.004
479.00,0.004
480.00,0.004
481.00,0.004
482.00,0.004
483.00,0.004
484.00,0.004
485.00,0.004
486.00,0.004
487.00,0.004
488.00,0.004
489.00,0.004
490.00,0.004
491.00,0.004
492.00,0.004
493.00,0.004
494.00,0.004
495.00,0.004
496.00,0.004
497.00,0.004
498.00,0.004
499.00,0.004
500.00,0.004
501.00,0.004
502.00,0.004
503.00,0.004
504.00,0.004
505.00,0.004
506.00,0.004
507.00,0.004
508.00,0.004
509.00,0.004
510.00,0.004
511.00,0.004
512.00,0.004
513.00,0.004
514.00,0.004
515.00,0.004
516.00,0.004
517.00,0.004
518.00,0.004
519.00,0.004
520.00,0.004
521.00,0.004
522.00,0.004
523.00,0.004
524.00,0.004
525.00,0.004
526.00,0.004
527.00,0.004
528.00,0.004
529.00,0.004
530.00,0.004
531.00,0.004
532.00,0.004
533.00,0.004
534.00,0.004
535.00,0.004
536.00,0.004
537.00,0.004
538.00,0.004
539.00,0.004
540.00,0.004
541.00,0.004
542.00,0.004
543.00,0.004
544.00,0.004
545.00,0.004
546.00,0.004
547.00,0.004
548.00,0.004
549.00,0.004
550.00,0.004
551.00,0.004
552.00,0.004
553.00,0.004
554.00,0.004
555.00,0.003
556.00,0.003
557.00,0.003
558.00,0.003
559.00,0.003
560.00,0.003
561.00,0.003
562.00,0.003
563.00,0.003
564.00,0.003
565.00,0.003
566.00,0.003
567.00,0.003
568.00,0.003
569.00,0.003
570.00,0.003
571.00,0.003
572.00,0.003
573.00,0.003
574.00,0.003
575.00,0.003
576.00,0.003
577.00,0.003
578.00,0.003
579.00,0.003
580.00,0.003
581.00,0.003
582.00,0.003
583.00,0.003
584.00,0.003
585.00,0.003
586.00,0.003
587.00,0.003
588.00,0.003
589.00,0.003
590.00,0.003
591.00,0.003
592.00,0.003
593.00,0.003
594.00,0.003
595.00,0.003
596.00,0.003
597.00,0.003
598.00,0.003
599.00,0.003
600.00,0.003
601.00,0.003
602.00,0.003
603.00,0.003
604.00,0.003
605.00,0.003
606.00,0.003
607.00,0.003
608.00,0.003
609.00,0.003
610.00,0.003
611.00,0.003
612.00,0.003
613.00,0.003
614.00,0.003
615.00,0.003
616.00,0.003
617.00,0.003
618.00,0.003
619.00,0.003
620.00,0.003
621.00,0.003
622.00,0.003
623.00,0.003
624.00,0.003
625.00,0.003
626.00,0.003
627.00,0.003
628.00,0.003
629.00,0.003
630.00,0.003
631.00,0.003
632.00,0.003
633.00,0.003
634.00,0.003
635.00,0.003
636.00,0.003
637.00,0.003
638.00,0.003
639.00,0.003
640.00,0.003
641.00,0.003
642.00,0.003
643.00,0.003
644.00,0.003
645.00,0.003
646.00,0.003
647.00,0.003
648.00,0.003
649.00,0.003
650.00,0.003
651.00,0.003
652.00,0.003
653.00,0.003
654.00,0.003
655.00,0.003
656.00,0.003
657.00,0.003
658.00,0.003
659.00,0.003
660.00,0.003
661.00,0.003
662.00,0.003
663.00,0.003
664.00,0.003
665.00,0.003
666.00,0.003
667.00,0.003
668.00,0.003
669.00,0.003
670.00,0.003
671.00,0.003
672.00,0.003
673.00,0.003
674.00,0.003
675.00,0.003
676.00,0.003
677.00,0.003
678.00,0.003
679.00,0.003
680.00,0.003
681.00,0.003
682.00,0.003
683.00,0.003
684.00,0.003
685.00,0.003
686.00,0.003
687.00,0.003
688.00,0.003
689.00,0.003
690.00,0.003
691.00,0.003
692.00,0.003
693.00,0.003
694.00,0.003
695.00,0.003
696.00,0.003
697.00,0.003
698.00,0.003
699.00,0.003
700.00,0.003
701.00,0.003
702.00,0.003
703.00,0.003
704.00,0.003
705.00,0.003
706.00,0.003
707.00,0.003
708.00,0.003
709.00,0.003
710.00,0.003
711.00,0.003
712.00,0.003
713.00,0.003
714.00,0.003
715.00,0.003
716.00,0.003
717.00,0.003
718.00,0.003
719.00,0.003
720.00,0.003
721.00,0.003
722.00,0.003
723.00,0.003
724.00,0.003
725.00,0.003
726.00,0.003
727.00,0.003
728.00,0.003
729.00,0.003
730.00,0.003
731.00,0.003
732.00,0.003
733.00,0.003
734.00,0.003
735.00,0.003
736.00,0.003
737.00,0.003
738.00,0.003
739.00,0.003
740.00,0.003
741.00,0.003
742.00,0.003
743.00,0.003
744.00,0.003
745.00,0.003
746.00,0.003
747.00,0.003
748.00,0.003
749.00,0.003
750.00,0.003
751.00, 
752.00, 
753.00, 
754.00, 
755.00, 
756.00, 
757.00, 
758.00, 
759.00, 
760.00, 
761.00, 
762.00, 
763.00, 
764.00, 
765.00, 
766.00, 
767.00, 
768.00, 
769.00, 
770.00, 
771.00, 
772.00, 
773.00, 
774.00, 
775.00, 
776.00, 
777.00, 
778.00, 
779.00, 
780.00, 
781.00, 
782.00, 
783.00, 
784.00, 
785.00, 
786.00, 
787.00, 
788.00, 
789.00, 
790.00, 
791.00, 
792.00, 
793.00, 
794.00, 
795.00, 
796.00, 
797.00, 
798.00, 
799.00, 
800.00, 
801.00, 
802.00, 
803.00, 
804.00, 
805.00, 
806.00, 
807.00, 
808.00, 
809.00, 
810.00, 
811.00, 
812.00, 
813.00, 
814.00, 
815.00, 
816.00, 
817.00, 
818.00, 
819.00, 
820.00, 
821.00, 
822.00, 
823.00, 
824.00, 
825.00, 
826.00, 
827.00, 
828.00, 
829.00, 
830.00, 
831.00, 
832.00, 
833.00, 
834.00, 
835.00, 
836.00, 
837.00, 
838.00, 
839.00, 
840.00, 
841.00, 
842.00, 
843.00, 
844.00, 
845.00, 
846.00, 
847.00, 
848.00, 
849.00, 
850.00, 
851.00, 
852.00, 
853.00, 
854.00, 
855.00, 
856.00, 
857.00, 
858.00, 
859.00, 
860.00, 
861.00, 
862.00, 
863.00, 
864.00, 
865.00, 
866.00, 
867.00, 
868.00, 
869.00, 
870.00, 
871.00, 
872.00, 
873.00, 
874.00, 
875.00, 
876.00, 
877.00, 
878.00, 
879.00, 
880.00, 
881.00, 
882.00, 
883.00, 
884.00, 
885.00, 
886.00, 
887.00, 
888.00, 
889.00, 
890.00, 
891.00, 
892.00, 
893.00, 
894.00, 
895.00, 
896.00, 
897.00, 
898.00, 
899.00, 
900.00, 
901.00, 
902.00, 
903.00, 
904.00, 
905.00, 
906.00, 
907.00, 
908.00, 
909.00, 
910.00, 
911.00, 
912.00, 
913.00, 
914.00, 
915.00, 
916.00, 
917.00, 
918.00, 
919.00, 
920.00, 
921.00, 
922.00, 
923.00, 
924.00, 
925.00, 
926.00, 
927.00, 
928.00, 
929.00, 
930.00, 
931.00, 
932.00, 
933.00, 
934.00, 
935.00, 
936.00, 
937.00, 
938.00, 
939.00, 
940.00, 
941.00, 
942.00, 
943.00, 
944.00, 
945.00, 
946.00, 
947.00, 
948.00, 
949.00, 
950.00, 
951.00, 
952.00, 
953.00, 
954.00, 
955.00, 
956.00, 
957.00, 
958.00, 
959.00, 
960.00, 
961.00, 
962.00, 
963.00, 
964.00, 
965.00, 
966.00, 
967.00, 
968.00, 
969.00, 
970.00, 
971.00, 
972.00, 
973.00, 
974.00, 
975.00, 
976.00, 
977.00, 
978.00, 
979.00, 
980.00, 
981.00, 
982.00, 
983.00, 
984.00, 
985.00, 
986.00, 
987.00, 
988.00, 
989.00, 
990.00, 
991.00, 
992.00, 
993.00, 
994.00, 
995.00, 
996.00, 
997.00, 
998.00, 
999.00, 
1000.00, 
1001.00, 
1002.00, 
1003.00, 
1004.00, 
1005.00, 
1006.00, 
1007.00, 
1008.00, 
1009.00, 
1010.00, 
1011.00, 
1012.00, 
1013.00, 
1014.00, 
1015.00, 
1016.00, 
1017.00, 
1018.00, 
1019.00, 
1020.00, 
1021.00, 
1022.00, 
1023.00, 
1024.00, 
1025.00, 
1026.00, 
1027.00, 
1028.00, 
1029.00, 
1030.00, 
1031.00, 
1032.00, 
1033.00, 
1034.00, 
1035.00, 
1036.00, 
1037.00, 
1038.00, 
1039.00, 
1040.00, 
1041.00, 
1042.00, 
1043.00, 
1044.00, 
1045.00, 
1046.00, 
1047.00, 
1048.00, 
1049.00, 
1050.00, 
1051.00, 
1052.00, 
1053.00, 
1054.00, 
1055.00, 
1056.00, 
1057.00, 
1058.00, 
1059.00, 
1060.00, 
1061.00, 
1062.00, 
1063.00, 
1064.00, 
1065.00, 
1066.00, 
1067.00, 
1068.00, 
1069.00, 
1070.00, 
1071.00, 
1072.00, 
1073.00, 
1074.00, 
1075.00, 
1076.00, 
1077.00, 
1078.00, 
1079.00, 
1080.00, 
1081.00, 
1082.00, 
1083.00, 
1084.00, 
1085.00, 
1086.00, 
1087.00, 
1088.00, 
1089.00, 
1090.00, 
1091.00, 
1092.00, 
1093.00, 
1094.00, 
1095.00, 
1096.00, 
1097.00, 
1098.00, 
1099.00, 
1100.00, 
