"File_181019_160714_black_pvcliner_Gd_soak2 - RawData"
"Wavelength nm.","Abs."
190.00, 
191.00, 
192.00, 
193.00, 
194.00, 
195.00, 
196.00, 
197.00, 
198.00, 
199.00, 
200.00,3.692
201.00,3.668
202.00,3.921
203.00,4.000
204.00,3.938
205.00,3.936
206.00,3.957
207.00,3.921
208.00,3.874
209.00,3.913
210.00,3.836
211.00,3.911
212.00,3.922
213.00,3.818
214.00,3.989
215.00,3.865
216.00,3.920
217.00,3.813
218.00,3.902
219.00,3.679
220.00,3.561
221.00,3.560
222.00,3.430
223.00,3.319
224.00,3.112
225.00,2.855
226.00,2.614
227.00,2.394
228.00,2.225
229.00,2.073
230.00,1.944
231.00,1.836
232.00,1.733
233.00,1.645
234.00,1.558
235.00,1.477
236.00,1.392
237.00,1.302
238.00,1.210
239.00,1.113
240.00,1.013
241.00,0.918
242.00,0.836
243.00,0.763
244.00,0.706
245.00,0.652
246.00,0.616
247.00,0.573
248.00,0.551
249.00,0.541
250.00,0.538
251.00,0.543
252.00,0.566
253.00,0.578
254.00,0.596
255.00,0.627
256.00,0.663
257.00,0.699
258.00,0.739
259.00,0.784
260.00,0.842
261.00,0.909
262.00,0.975
263.00,1.027
264.00,1.067
265.00,1.101
266.00,1.142
267.00,1.198
268.00,1.261
269.00,1.305
270.00,1.308
271.00,1.270
272.00,1.335
273.00,1.505
274.00,1.284
275.00,1.256
276.00,1.266
277.00,1.032
278.00,0.909
279.00,0.750
280.00,0.569
281.00,0.441
282.00,0.342
283.00,0.271
284.00,0.221
285.00,0.185
286.00,0.158
287.00,0.139
288.00,0.125
289.00,0.116
290.00,0.110
291.00,0.106
292.00,0.103
293.00,0.102
294.00,0.101
295.00,0.101
296.00,0.100
297.00,0.099
298.00,0.099
299.00,0.098
300.00,0.098
301.00,0.096
302.00,0.094
303.00,0.093
304.00,0.092
305.00,0.101
306.00,0.096
307.00,0.088
308.00,0.088
309.00,0.088
310.00,0.095
311.00,0.115
312.00,0.093
313.00,0.088
314.00,0.088
315.00,0.087
316.00,0.086
317.00,0.084
318.00,0.082
319.00,0.081
320.00,0.079
321.00,0.078
322.00,0.077
323.00,0.076
324.00,0.075
325.00,0.074
326.00,0.073
327.00,0.072
328.00,0.069
329.00,0.067
330.00,0.064
331.00,0.060
332.00,0.056
333.00,0.052
334.00,0.047
335.00,0.043
336.00,0.039
337.00,0.036
338.00,0.033
339.00,0.031
340.00,0.029
341.00,0.026
342.00,0.024
343.00,0.023
344.00,0.022
345.00,0.021
346.00,0.020
347.00,0.019
348.00,0.018
349.00,0.018
350.00,0.017
351.00,0.016
352.00,0.016
353.00,0.015
354.00,0.014
355.00,0.014
356.00,0.014
357.00,0.013
358.00,0.013
359.00,0.012
360.00,0.012
361.00,0.012
362.00,0.011
363.00,0.011
364.00,0.010
365.00,0.010
366.00,0.010
367.00,0.010
368.00,0.010
369.00,0.009
370.00,0.009
371.00,0.009
372.00,0.009
373.00,0.008
374.00,0.008
375.00,0.008
376.00,0.008
377.00,0.008
378.00,0.007
379.00,0.007
380.00,0.007
381.00,0.007
382.00,0.006
383.00,0.006
384.00,0.006
385.00,0.006
386.00,0.006
387.00,0.006
388.00,0.006
389.00,0.005
390.00,0.005
391.00,0.005
392.00,0.005
393.00,0.005
394.00,0.005
395.00,0.004
396.00,0.004
397.00,0.004
398.00,0.004
399.00,0.004
400.00,0.004
401.00,0.004
402.00,0.004
403.00,0.004
404.00,0.004
405.00,0.004
406.00,0.004
407.00,0.004
408.00,0.004
409.00,0.004
410.00,0.004
411.00,0.004
412.00,0.004
413.00,0.003
414.00,0.003
415.00,0.003
416.00,0.004
417.00,0.003
418.00,0.003
419.00,0.003
420.00,0.003
421.00,0.003
422.00,0.003
423.00,0.003
424.00,0.003
425.00,0.003
426.00,0.003
427.00,0.003
428.00,0.003
429.00,0.003
430.00,0.003
431.00,0.003
432.00,0.003
433.00,0.003
434.00,0.003
435.00,0.003
436.00,0.003
437.00,0.003
438.00,0.003
439.00,0.003
440.00,0.003
441.00,0.003
442.00,0.003
443.00,0.003
444.00,0.003
445.00,0.003
446.00,0.003
447.00,0.003
448.00,0.003
449.00,0.003
450.00,0.003
451.00,0.003
452.00,0.003
453.00,0.003
454.00,0.003
455.00,0.003
456.00,0.003
457.00,0.003
458.00,0.003
459.00,0.003
460.00,0.003
461.00,0.003
462.00,0.003
463.00,0.003
464.00,0.003
465.00,0.003
466.00,0.003
467.00,0.003
468.00,0.003
469.00,0.003
470.00,0.003
471.00,0.003
472.00,0.003
473.00,0.003
474.00,0.003
475.00,0.003
476.00,0.003
477.00,0.003
478.00,0.003
479.00,0.003
480.00,0.002
481.00,0.003
482.00,0.003
483.00,0.002
484.00,0.003
485.00,0.003
486.00,0.003
487.00,0.003
488.00,0.003
489.00,0.003
490.00,0.003
491.00,0.003
492.00,0.003
493.00,0.003
494.00,0.003
495.00,0.003
496.00,0.003
497.00,0.003
498.00,0.003
499.00,0.003
500.00,0.003
501.00,0.003
502.00,0.003
503.00,0.003
504.00,0.003
505.00,0.003
506.00,0.003
507.00,0.003
508.00,0.003
509.00,0.003
510.00,0.002
511.00,0.003
512.00,0.002
513.00,0.002
514.00,0.002
515.00,0.002
516.00,0.002
517.00,0.002
518.00,0.002
519.00,0.002
520.00,0.002
521.00,0.002
522.00,0.002
523.00,0.002
524.00,0.002
525.00,0.002
526.00,0.002
527.00,0.002
528.00,0.002
529.00,0.002
530.00,0.002
531.00,0.002
532.00,0.002
533.00,0.002
534.00,0.002
535.00,0.002
536.00,0.002
537.00,0.002
538.00,0.002
539.00,0.002
540.00,0.002
541.00,0.002
542.00,0.002
543.00,0.002
544.00,0.002
545.00,0.002
546.00,0.002
547.00,0.002
548.00,0.002
549.00,0.002
550.00,0.002
551.00,0.002
552.00,0.002
553.00,0.002
554.00,0.002
555.00,0.002
556.00,0.002
557.00,0.002
558.00,0.002
559.00,0.002
560.00,0.002
561.00,0.002
562.00,0.002
563.00,0.002
564.00,0.002
565.00,0.002
566.00,0.002
567.00,0.002
568.00,0.002
569.00,0.002
570.00,0.002
571.00,0.002
572.00,0.002
573.00,0.002
574.00,0.002
575.00,0.002
576.00,0.002
577.00,0.002
578.00,0.002
579.00,0.002
580.00,0.002
581.00,0.002
582.00,0.002
583.00,0.002
584.00,0.002
585.00,0.002
586.00,0.002
587.00,0.002
588.00,0.002
589.00,0.002
590.00,0.002
591.00,0.002
592.00,0.002
593.00,0.002
594.00,0.002
595.00,0.002
596.00,0.002
597.00,0.002
598.00,0.002
599.00,0.002
600.00,0.002
601.00,0.002
602.00,0.002
603.00,0.002
604.00,0.002
605.00,0.002
606.00,0.002
607.00,0.001
608.00,0.001
609.00,0.002
610.00,0.002
611.00,0.001
612.00,0.001
613.00,0.002
614.00,0.002
615.00,0.002
616.00,0.001
617.00,0.002
618.00,0.001
619.00,0.001
620.00,0.001
621.00,0.001
622.00,0.001
623.00,0.001
624.00,0.001
625.00,0.001
626.00,0.001
627.00,0.001
628.00,0.001
629.00,0.001
630.00,0.001
631.00,0.001
632.00,0.001
633.00,0.001
634.00,0.001
635.00,0.001
636.00,0.001
637.00,0.001
638.00,0.001
639.00,0.001
640.00,0.001
641.00,0.001
642.00,0.001
643.00,0.001
644.00,0.001
645.00,0.001
646.00,0.001
647.00,0.001
648.00,0.001
649.00,0.001
650.00,0.001
651.00,0.001
652.00,0.001
653.00,0.001
654.00,0.001
655.00,0.001
656.00,0.001
657.00,0.001
658.00,0.001
659.00,0.001
660.00,0.001
661.00,0.001
662.00,0.001
663.00,0.001
664.00,0.001
665.00,0.001
666.00,0.001
667.00,0.001
668.00,0.001
669.00,0.001
670.00,0.001
671.00,0.001
672.00,0.001
673.00,0.001
674.00,0.001
675.00,0.001
676.00,0.001
677.00,0.001
678.00,0.001
679.00,0.001
680.00,0.001
681.00,0.001
682.00,0.001
683.00,0.001
684.00,0.001
685.00,0.001
686.00,0.001
687.00,0.001
688.00,0.001
689.00,0.001
690.00,0.001
691.00,0.001
692.00,0.001
693.00,0.001
694.00,0.001
695.00,0.001
696.00,0.001
697.00,0.001
698.00,0.001
699.00,0.001
700.00,0.001
701.00,0.001
702.00,0.001
703.00,0.001
704.00,0.001
705.00,0.001
706.00,0.001
707.00,0.001
708.00,0.001
709.00,0.001
710.00,0.001
711.00,0.001
712.00,0.001
713.00,0.001
714.00,0.001
715.00,0.001
716.00,0.001
717.00,0.001
718.00,0.001
719.00,0.001
720.00,0.001
721.00,0.001
722.00,0.001
723.00,0.001
724.00,0.001
725.00,0.001
726.00,0.001
727.00,0.001
728.00,0.001
729.00,0.001
730.00,0.001
731.00,0.001
732.00,0.001
733.00,0.001
734.00,0.000
735.00,0.000
736.00,0.000
737.00,0.000
738.00,0.000
739.00,0.000
740.00,0.000
741.00,0.000
742.00,0.000
743.00,0.000
744.00,0.000
745.00,0.000
746.00,0.000
747.00,0.000
748.00,0.000
749.00,0.001
750.00,0.001
751.00, 
752.00, 
753.00, 
754.00, 
755.00, 
756.00, 
757.00, 
758.00, 
759.00, 
760.00, 
761.00, 
762.00, 
763.00, 
764.00, 
765.00, 
766.00, 
767.00, 
768.00, 
769.00, 
770.00, 
771.00, 
772.00, 
773.00, 
774.00, 
775.00, 
776.00, 
777.00, 
778.00, 
779.00, 
780.00, 
781.00, 
782.00, 
783.00, 
784.00, 
785.00, 
786.00, 
787.00, 
788.00, 
789.00, 
790.00, 
791.00, 
792.00, 
793.00, 
794.00, 
795.00, 
796.00, 
797.00, 
798.00, 
799.00, 
800.00, 
801.00, 
802.00, 
803.00, 
804.00, 
805.00, 
806.00, 
807.00, 
808.00, 
809.00, 
810.00, 
811.00, 
812.00, 
813.00, 
814.00, 
815.00, 
816.00, 
817.00, 
818.00, 
819.00, 
820.00, 
821.00, 
822.00, 
823.00, 
824.00, 
825.00, 
826.00, 
827.00, 
828.00, 
829.00, 
830.00, 
831.00, 
832.00, 
833.00, 
834.00, 
835.00, 
836.00, 
837.00, 
838.00, 
839.00, 
840.00, 
841.00, 
842.00, 
843.00, 
844.00, 
845.00, 
846.00, 
847.00, 
848.00, 
849.00, 
850.00, 
851.00, 
852.00, 
853.00, 
854.00, 
855.00, 
856.00, 
857.00, 
858.00, 
859.00, 
860.00, 
861.00, 
862.00, 
863.00, 
864.00, 
865.00, 
866.00, 
867.00, 
868.00, 
869.00, 
870.00, 
871.00, 
872.00, 
873.00, 
874.00, 
875.00, 
876.00, 
877.00, 
878.00, 
879.00, 
880.00, 
881.00, 
882.00, 
883.00, 
884.00, 
885.00, 
886.00, 
887.00, 
888.00, 
889.00, 
890.00, 
891.00, 
892.00, 
893.00, 
894.00, 
895.00, 
896.00, 
897.00, 
898.00, 
899.00, 
900.00, 
901.00, 
902.00, 
903.00, 
904.00, 
905.00, 
906.00, 
907.00, 
908.00, 
909.00, 
910.00, 
911.00, 
912.00, 
913.00, 
914.00, 
915.00, 
916.00, 
917.00, 
918.00, 
919.00, 
920.00, 
921.00, 
922.00, 
923.00, 
924.00, 
925.00, 
926.00, 
927.00, 
928.00, 
929.00, 
930.00, 
931.00, 
932.00, 
933.00, 
934.00, 
935.00, 
936.00, 
937.00, 
938.00, 
939.00, 
940.00, 
941.00, 
942.00, 
943.00, 
944.00, 
945.00, 
946.00, 
947.00, 
948.00, 
949.00, 
950.00, 
951.00, 
952.00, 
953.00, 
954.00, 
955.00, 
956.00, 
957.00, 
958.00, 
959.00, 
960.00, 
961.00, 
962.00, 
963.00, 
964.00, 
965.00, 
966.00, 
967.00, 
968.00, 
969.00, 
970.00, 
971.00, 
972.00, 
973.00, 
974.00, 
975.00, 
976.00, 
977.00, 
978.00, 
979.00, 
980.00, 
981.00, 
982.00, 
983.00, 
984.00, 
985.00, 
986.00, 
987.00, 
988.00, 
989.00, 
990.00, 
991.00, 
992.00, 
993.00, 
994.00, 
995.00, 
996.00, 
997.00, 
998.00, 
999.00, 
1000.00, 
1001.00, 
1002.00, 
1003.00, 
1004.00, 
1005.00, 
1006.00, 
1007.00, 
1008.00, 
1009.00, 
1010.00, 
1011.00, 
1012.00, 
1013.00, 
1014.00, 
1015.00, 
1016.00, 
1017.00, 
1018.00, 
1019.00, 
1020.00, 
1021.00, 
1022.00, 
1023.00, 
1024.00, 
1025.00, 
1026.00, 
1027.00, 
1028.00, 
1029.00, 
1030.00, 
1031.00, 
1032.00, 
1033.00, 
1034.00, 
1035.00, 
1036.00, 
1037.00, 
1038.00, 
1039.00, 
1040.00, 
1041.00, 
1042.00, 
1043.00, 
1044.00, 
1045.00, 
1046.00, 
1047.00, 
1048.00, 
1049.00, 
1050.00, 
1051.00, 
1052.00, 
1053.00, 
1054.00, 
1055.00, 
1056.00, 
1057.00, 
1058.00, 
1059.00, 
1060.00, 
1061.00, 
1062.00, 
1063.00, 
1064.00, 
1065.00, 
1066.00, 
1067.00, 
1068.00, 
1069.00, 
1070.00, 
1071.00, 
1072.00, 
1073.00, 
1074.00, 
1075.00, 
1076.00, 
1077.00, 
1078.00, 
1079.00, 
1080.00, 
1081.00, 
1082.00, 
1083.00, 
1084.00, 
1085.00, 
1086.00, 
1087.00, 
1088.00, 
1089.00, 
1090.00, 
1091.00, 
1092.00, 
1093.00, 
1094.00, 
1095.00, 
1096.00, 
1097.00, 
1098.00, 
1099.00, 
1100.00, 
